Description: CIE 1964 10 Degree Observer, chromaticity co-ordinate x of spectral locus, downloaded from http://cvision.ucsd.edu
Type: Locus
Wavelength Units: Microns

0.360 0.182218
0.365 0.182098
0.370 0.181923
0.375 0.181671
0.380 0.181333
0.385 0.180906
0.390 0.180313
0.395 0.179466
0.400 0.178387
0.405 0.177122
0.410 0.175488
0.415 0.173231
0.420 0.170634
0.425 0.167902
0.430 0.165027
0.435 0.162170
0.440 0.159022
0.445 0.155391
0.450 0.151001
0.455 0.145945
0.460 0.138922
0.465 0.129520
0.470 0.115180
0.475 0.095732
0.480 0.072777
0.485 0.045167
0.490 0.020987
0.495 0.007302
0.500 0.005586
0.505 0.021874
0.510 0.049540
0.515 0.085024
0.520 0.125236
0.525 0.166408
0.530 0.207057
0.535 0.243642
0.540 0.278588
0.545 0.313230
0.550 0.347296
0.555 0.381161
0.560 0.414213
0.565 0.446924
0.570 0.479038
0.575 0.509641
0.580 0.538560
0.585 0.565444
0.590 0.589960
0.595 0.611597
0.600 0.630629
0.605 0.647127
0.610 0.661224
0.615 0.673055
0.620 0.682660
0.625 0.689759
0.630 0.695483
0.635 0.700989
0.640 0.705873
0.645 0.710249
0.650 0.713713
0.655 0.715619
0.660 0.716790
0.665 0.717887
0.670 0.718732
0.675 0.719344
0.680 0.719763
0.685 0.720016
0.690 0.720160
0.695 0.720296
0.700 0.720358
0.705 0.720324
0.710 0.720227
0.715 0.720090
0.720 0.719911
0.725 0.719694
0.730 0.719447
0.735 0.719186
0.740 0.718906
0.745 0.718609
0.750 0.718292
0.755 0.717959
0.760 0.717607
0.765 0.717240
0.770 0.716859
0.775 0.716464
0.780 0.716057
0.785 0.715637
0.790 0.715208
0.795 0.714770
0.800 0.714325
0.805 0.713872
0.810 0.713411
0.815 0.712943
0.820 0.712471
0.825 0.711999
0.830 0.711523
