Description: ASTM E891-87 Table 3 - 50 Selected Ordinates for Direct Normal Irradiance AM 1.5 - Identical to ISO 9845, Table 3, Column 3
Type: Source
Wavelength Units: micron

0.3612   1.0000
0.4017   1.0000
0.4254   1.0000
0.4458   1.0000
0.4620   1.0000
0.4772   1.0000
0.4923   1.0000
0.5072   1.0000
0.5219   1.0000
0.5364   1.0000
0.5505   1.0000
0.5645   1.0000
0.5788   1.0000
0.5934   1.0000
0.6079   1.0000
0.6223   1.0000
0.6366   1.0000
0.6511   1.0000
0.6657   1.0000
0.6814   1.0000
0.6977   1.0000
0.7143   1.0000
0.7317   1.0000
0.7482   1.0000
0.7666   1.0000
0.7844   1.0000
0.8018   1.0000
0.8220   1.0000
0.8425   1.0000
0.8615   1.0000
0.8809   1.0000
0.9027   1.0000
0.9293   1.0000
0.9733   1.0000
1.0002   1.0000
1.0256   1.0000
1.0518   1.0000
1.0813   1.0000
1.1364   1.0000
1.1890   1.0000
1.2277   1.0000
1.2685   1.0000
1.3107   1.0000
1.5035   1.0000
1.5692   1.0000
1.6384   1.0000
1.7168   1.0000
2.0342   1.0000
2.2484   1.0000
3.3179   1.0000

