Description: CIE 1964 10 Degree Observer, chromaticity co-ordinate y of spectral locus, downloaded from http://cvision.ucsd.edu
Type: Locus
Wavelength Units: Microns

0.360 0.019978
0.365 0.019938
0.370 0.019879
0.375 0.019797
0.380 0.019685
0.385 0.019542
0.390 0.019348
0.395 0.019044
0.400 0.018711
0.405 0.018402
0.410 0.018134
0.415 0.017806
0.420 0.017849
0.425 0.018708
0.430 0.020283
0.435 0.022487
0.440 0.025725
0.445 0.030017
0.450 0.036439
0.455 0.045217
0.460 0.058920
0.465 0.077870
0.470 0.109040
0.475 0.159090
0.480 0.229239
0.485 0.327343
0.490 0.440113
0.495 0.562523
0.500 0.674543
0.505 0.752578
0.510 0.802302
0.515 0.816976
0.520 0.810194
0.525 0.792172
0.530 0.766282
0.535 0.739873
0.540 0.711300
0.545 0.681278
0.550 0.650090
0.555 0.618164
0.560 0.585787
0.565 0.553076
0.570 0.520962
0.575 0.490359
0.580 0.461440
0.585 0.434556
0.590 0.410040
0.595 0.388403
0.600 0.369371
0.605 0.352873
0.610 0.338776
0.615 0.326945
0.620 0.317340
0.625 0.310241
0.630 0.304517
0.635 0.299011
0.640 0.294127
0.645 0.289751
0.650 0.286287
0.655 0.284381
0.660 0.283210
0.665 0.282113
0.670 0.281268
0.675 0.280656
0.680 0.280237
0.685 0.279984
0.690 0.279840
0.695 0.279704
0.700 0.279642
0.705 0.279676
0.710 0.279773
0.715 0.279910
0.720 0.280089
0.725 0.280306
0.730 0.280553
0.735 0.280814
0.740 0.281094
0.745 0.281391
0.750 0.281708
0.755 0.282041
0.760 0.282393
0.765 0.282760
0.770 0.283141
0.775 0.283536
0.780 0.283943
0.785 0.284363
0.790 0.284792
0.795 0.285230
0.800 0.285675
0.805 0.286128
0.810 0.286589
0.815 0.287057
0.820 0.287529
0.825 0.288001
0.830 0.288477
