Description: y_bar Component : CIE 1931 2 Degree Observer at 5 nm intervals from 360 to 830 nm, from ISO/CIE 10527 Table 1, downloaded from: http://cvision.ucsd.edu
Type: Detector
Wavelength Units: Nanometers
360     0.000003917
365     0.000006965
370     0.00001239
375     0.00002202
380     0.0000390
385     0.0000640
390     0.0001200
395     0.0002170
400     0.0003960
405     0.0006400
410     0.0012100
415     0.0021800
420     0.0040000
425     0.0073000
430     0.0116000
435     0.0168400
440     0.0230000
445     0.0298000
450     0.0380000
455     0.0480000
460     0.0600000
465     0.0739000
470     0.0909800
475     0.1126000
480     0.1390200
485     0.1693000
490     0.2080200
495     0.2586000
500     0.3230000
505     0.4073000
510     0.5030000
515     0.6082000
520     0.7100000
525     0.7932000
530     0.8620000
535     0.9148501
540     0.9540000
545     0.9803000
550     0.9949501
555     1.0000000
560     0.9950000
565     0.9786000
570     0.9520000
575     0.9154000
580     0.8700000
585     0.8163000
590     0.7570000
595     0.6949000
600     0.6310000
605     0.5668000
610     0.5030000
615     0.4412000
620     0.3810000
625     0.3210000
630     0.2650000
635     0.2170000
640     0.1750000
645     0.1382000
650     0.1070000
655     0.0816000
660     0.0610000
665     0.0445800
670     0.0320000
675     0.0232000
680     0.0170000
685     0.0119200
690     0.0082100
695     0.0057230
700     0.0041020
705     0.0029290
710     0.0020910
715     0.0014840
720     0.0010470
725     0.0007400
730     0.0005200
735     0.0003611
740     0.0002492
745     0.0001719
750     0.0001200
755     0.0000848
760     0.0000600
765     0.0000424
770     0.0000300
775     0.0000212
780     0.00001499
785     0.0000106
790     0.0000074657
795     0.0000052578
800     0.0000037029
805     0.0000026078
810     0.0000018366
815     0.0000012934
820     0.00000091093
825     0.00000064153
830     0.00000045181
