Description: x_bar Component : CIE 1931 2 Degree Observer at 5 nm intervals from 360 to 830 nm, from ISO/CIE 10527 Table 1, downloaded from: http://cvision.ucsd.edu
Type: Detector
Wavelength Units: Nanometers
360     0.0001299
365     0.0002321
370     0.0004149
375     0.0007416
380     0.0013680
385     0.0022360
390     0.0042430
395     0.0076500
400     0.0143100
405     0.0231900
410     0.0435100
415     0.0776300
420     0.1343800
425     0.2147700
430     0.2839000
435     0.3285000
440     0.3482800
445     0.3480600
450     0.3362000
455     0.3187000
460     0.2908000
465     0.2511000
470     0.1953600
475     0.1421000
480     0.0956400
485     0.05795001
490     0.0320100
495     0.0147000
500     0.0049000
505     0.0024000
510     0.0093000
515     0.0291000
520     0.0632700
525     0.1096000
530     0.1655000
535     0.2257499
540     0.2904000
545     0.3597000
550     0.4334499
555     0.5120501
560     0.5945000
565     0.6784000
570     0.7621000
575     0.8425000
580     0.9163000
585     0.9786000
590     1.0263000
595     1.0567000
600     1.0622000
605     1.0456000
610     1.0026000
615     0.9384000
620     0.8544499
625     0.7514000
630     0.6424000
635     0.5419000
640     0.4479000
645     0.3608000
650     0.2835000
655     0.2187000
660     0.1649000
665     0.1212000
670     0.0874000
675     0.0636000
680     0.0467700
685     0.0329000
690     0.0227000
695     0.0158400
700     0.01135916
705     0.008110916
710     0.005790346
715     0.004106457
720     0.002899327
725     0.00204919
730     0.001439971
735     0.0009999493
740     0.0006900786
745     0.0004760213
750     0.0003323011
755     0.0002348261
760     0.0001661505
765     0.000117413
770     0.00008307527
775     0.00005870652
780     0.00004150994
785     0.00002935326
790     0.00002067383
795     0.00001455977
800     0.00001025398
805     0.000007221456
810     0.000005085868
815     0.000003581652
820     0.000002522525
825     0.000001776509
830     0.000001251141
