Description: z_bar Component : CIE 1964 10 Degree Observer at 5 nm intervals from 360 to 830 nm, from ISO/CIE 10527 Table 2, downloaded from: http://cvision.ucsd.edu
Type: Detector
Wavelength Units: Nanometers
360     0.000000535027
365     0.0000040283
370     0.0000261437
375     0.00014622
380     0.000704776
385     0.0029278
390     0.0104822
395     0.0323440
400     0.0860109
405     0.1971200
410     0.3893660
415     0.6567600
420     0.9725420
425     1.2825000
430     1.5534800
435     1.7985000
440     1.9672800
445     2.0273000
450     1.9948000
455     1.9007000
460     1.7453700
465     1.5549000
470     1.3175600
475     1.0302000
480     0.7721250
485     0.5706000
490     0.4152540
495     0.3023560
500     0.2185020
505     0.1592490
510     0.1120440
515     0.0822480
520     0.0607090
525     0.0430500
530     0.0304510
535     0.0205840
540     0.0136760
545     0.0079180
550     0.0039880
555     0.0010910
560     0.0000000
565     0.0000000
570     0.0000000
575     0.0000000
580     0.0000000
585     0.0000000
590     0.0000000
595     0.0000000
600     0.0000000
605     0.0000000
610     0.0000000
615     0.0000000
620     0.0000000
625     0.0000000
630     0.0000000
635     0.0000000
640     0.0000000
645     0.0000000
650     0.0000000
655     0.0000000
660     0.0000000
665     0.0000000
670     0.0000000
675     0.0000000
680     0.0000000
685     0.0000000
690     0.0000000
695     0.0000000
700     0.0000000
705     0.0000000
710     0.0000000
715     0.0000000
720     0.0000000
725     0.0000000
730     0.0000000
735     0.0000000
740     0.0000000
745     0.0000000
750     0.0000000
755     0.0000000
760     0.0000000
765     0.0000000
770     0.0000000
775     0.0000000
780     0.0000000
785     0.0000000
790     0.0000000
795     0.0000000
800     0.0000000
805     0.0000000
810     0.0000000
815     0.0000000
820     0.0000000
825     0.0000000
830     0.0000000
