Description: CIE 85 Global solar spectral irradiance at sea level (AM 1.0) from Technical Report No.CIE85, Table 4 - irradiance averaged over 20cm-1 centered at lambda in Wm-2um-1
Type: Source
Wavelength Units: Micron
  0.3050    47.0
  0.3100   132.5
  0.3150   258.3
  0.3200   374.7
  0.3250   466.3
  0.3300   660.0
  0.3350   627.1
  0.3400   679.3
  0.3450   669.0
  0.3500   723.0
  0.3600   751.4
  0.3700   935.5
  0.3800   975.9
  0.3900   964.8
  0.4000  1329.0
  0.4100  1492.1
  0.4200  1499.4
  0.4300  1337.9
  0.4400  1603.8
  0.4500  1855.7
  0.4600  1889.0
  0.4700  1847.6
  0.4800  1887.6
  0.4900  1769.5
  0.5000  1769.6
  0.5100  1802.0
  0.5200  1678.3
  0.5300  1771.4
  0.5400  1740.3
  0.5500  1747.2
  0.5700  1654.4
  0.5900  1548.9
  0.6100  1602.6
  0.6300  1541.4
  0.6500  1512.3
  0.6700  1460.9
  0.6900  1214.7
  0.7100  1370.5
  0.7180  1136.7
  0.7244  1161.0
  0.7400  1279.9
  0.7525  1247.3
  0.7575  1226.7
  0.7625   750.9
  0.7675  1095.7
  0.7800  1173.3
  0.8000  1125.2
  0.8160   930.4
  0.8237   871.4
  0.8315   971.6
  0.8400   999.4
  0.8600  1007.4
  0.8800   957.0
  0.9050   797.0
  0.9150   729.7
  0.9250   731.8
  0.9300   477.1
  0.9370   326.7
  0.9480   381.0
  0.9650   580.1
  0.9800   676.4
  0.9935   748.0
  1.0400   685.0
  1.0700   633.8
  1.1000   452.9
  1.1200   150.7
  1.1300   235.0
  1.1370   169.3
  1.1610   376.6
  1.1800   474.9
  1.2000   441.5
  1.2350   477.5
  1.2900   418.3
  1.3200   275.6
  1.3500    52.0
  1.3950     4.3
  1.4425    78.2
  1.4625   129.6
  1.4770   129.1
  1.4970   201.2
  1.5200   268.4
  1.5390   271.6
  1.5580   270.7
  1.5780   245.7
  1.5920   245.4
  1.6100   231.5
  1.6300   242.1
  1.6460   232.6
  1.6780   218.3
  1.7400   173.4
  1.8000    41.8
  1.8600     4.2
  1.9200     2.8
  1.9600    29.2
  1.9850    95.5
  2.0050    34.9
  2.0350   100.2
  2.0650    65.3
  2.1000    88.1
  2.1480    80.4
  2.1980    70.7
  2.2700    68.0
  2.3600    61.2
  2.4500    24.4
